<Encounter
		xmlns="http://hl7.org/fhir">
	<id value="GQ2TSNRUGI3TCMBUGE4DEOJVGRAHM3SVJFCA"></id>
	<meta>
		<lastUpdated value="2009-09-17T10:50:45.000+12:00"></lastUpdated>
		<security>
			<system value="http://hl7.org/fhir/v3/Confidentiality"></system>
			<code value="R"></code>
			<display value="restricted"></display>
		</security>
	</meta>
	<contained>
		<Practitioner
				xmlns="http://hl7.org/fhir">
			<id value="1"></id>
			<identifier>
				<system value="http://www.FHIR_EXAMPLE/uid"></system>
				<value value="attender2"></value>
			</identifier>
		</Practitioner>
	</contained>
	<contained>
		<Practitioner
				xmlns="http://hl7.org/fhir">
			<id value="2"></id>
			<identifier>
				<system value="http://www.FHIR_EXAMPLE/uid"></system>
				<value value="attender1"></value>
			</identifier>
		</Practitioner>
	</contained>
	<contained>
		<Practitioner
				xmlns="http://hl7.org/fhir">
			<id value="3"></id>
			<identifier>
				<system value="http://www.FHIR_EXAMPLE/uid"></system>
				<value value="consultantId"></value>
			</identifier>
		</Practitioner>
	</contained>
	<contained>
		<Practitioner
				xmlns="http://hl7.org/fhir">
			<id value="4"></id>
			<identifier>
				<system value="http://www.FHIR_EXAMPLE/uid"></system>
				<value value="referrer1"></value>
			</identifier>
		</Practitioner>
	</contained>
	<contained>
		<Appointment
				xmlns="http://hl7.org/fhir">
			<id value="5"></id>
			<start value="2011-02-02T10:15:00.000+13:00"></start>
			<end value="2011-02-03T10:15:00.000+13:00"></end>
			<minutesDuration value="1440"></minutesDuration>
		</Appointment>
	</contained>
	<contained>
		<Location
				xmlns="http://hl7.org/fhir">
			<id value="6"></id>
			<identifier>
				<system value="ORION"></system>
				<value value="dischargeToLoc"></value>
			</identifier>
		</Location>
	</contained>
	<contained>
		<Condition
				xmlns="http://hl7.org/fhir">
			<id value="7"></id>
			<extension url="http://orionhealth.com/structuredefinition/agent">
				<extension url="role">
					<valueCoding>
						<system value="http://hl7.org/fhir/provenance-participant-role"></system>
						<code value="author"></code>
						<display value="Author"></display>
					</valueCoding>
				</extension>
				<extension url="actorId">
					<valueIdentifier>
						<system value="http://www.FHIR_EXAMPLE/FHIR_EXAMPLE"></system>
						<value value="FHIR_EXAMPLE"></value>
					</valueIdentifier>
				</extension>
			</extension>
			<asserter>
				<reference value="#8"></reference>
			</asserter>
			<dateRecorded value="2008-08-17"></dateRecorded>
			<code>
				<coding>
					<system value="http://www.FHIR_EXAMPLE/DIAGNOSIS"></system>
					<code value="diagCode"></code>
					<display value="diagCode@DIAGNOSIS"></display>
				</coding>
				<text value="Alternate Diagnosis Text"></text>
			</code>
		</Condition>
	</contained>
	<contained>
		<Practitioner
				xmlns="http://hl7.org/fhir">
			<id value="8"></id>
			<identifier>
				<system value="http://www.FHIR_EXAMPLE/diaguid"></system>
				<value value="diagclin01"></value>
			</identifier>
		</Practitioner>
	</contained>
	<contained>
		<Location
				xmlns="http://hl7.org/fhir">
			<id value="9"></id>
			<identifier>
				<system value="ORION"></system>
				<value value="Bed"></value>
			</identifier>
			<description value="locationDescription"></description>
			<physicalType>
				<text value="bedSpace"></text>
			</physicalType>
		</Location>
	</contained>
	<contained>
		<Location
				xmlns="http://hl7.org/fhir">
			<id value="10"></id>
			<identifier>
				<system value="facUniversalId"></system>
				<value value="facUniversalId"></value>
			</identifier>
			<description value="locationDescription"></description>
			<physicalType>
				<text value="facility"></text>
			</physicalType>
		</Location>
	</contained>
	<contained>
		<Location
				xmlns="http://hl7.org/fhir">
			<id value="11"></id>
			<identifier>
				<system value="ORION"></system>
				<value value="Building"></value>
			</identifier>
			<description value="locationDescription"></description>
			<physicalType>
				<text value="building"></text>
			</physicalType>
		</Location>
	</contained>
	<contained>
		<Location
				xmlns="http://hl7.org/fhir">
			<id value="12"></id>
			<identifier>
				<system value="ORION"></system>
				<value value="Ward"></value>
			</identifier>
			<description value="locationDescription"></description>
			<physicalType>
				<text value="ward"></text>
			</physicalType>
		</Location>
	</contained>
	<contained>
		<Location
				xmlns="http://hl7.org/fhir">
			<id value="13"></id>
			<identifier>
				<system value="ORION"></system>
				<value value="Room"></value>
			</identifier>
			<description value="locationDescription"></description>
			<physicalType>
				<text value="room"></text>
			</physicalType>
		</Location>
	</contained>
	<extension url="http://orionhealth.com/structuredefinition/agent">
		<extension url="role">
			<valueCoding>
				<system value="http://hl7.org/fhir/provenance-participant-role"></system>
				<code value="enterer"></code>
				<display value="Enterer"></display>
			</valueCoding>
		</extension>
		<extension url="actorId">
			<valueIdentifier>
				<system value="http://www.FHIR_EXAMPLE/uid"></system>
				<value value="operator01"></value>
			</valueIdentifier>
		</extension>
	</extension>
	<extension url="http://orionhealth.com/structuredefinition/agent">
		<extension url="role">
			<valueCoding>
				<system value="http://hl7.org/fhir/provenance-participant-role"></system>
				<code value="author"></code>
				<display value="Author"></display>
			</valueCoding>
		</extension>
		<extension url="actorId">
			<valueIdentifier>
				<system value="http://www.FHIR_EXAMPLE/FHIR_EXAMPLE"></system>
				<value value="FHIR_EXAMPLE"></value>
			</valueIdentifier>
		</extension>
	</extension>
	<extension url="http://orionhealth.com/structuredefinition/agent">
		<extension url="role">
			<valueCoding>
				<system value="http://hl7.org/fhir/provenance-participant-role"></system>
				<code value="custodian"></code>
				<display value="Custodian"></display>
			</valueCoding>
		</extension>
		<extension url="actorId">
			<valueIdentifier>
				<system value="http://www.FHIR_EXAMPLE/evnFacUID"></system>
				<value value="evnFacUID"></value>
			</valueIdentifier>
		</extension>
	</extension>
	<extension url="http://orionhealth.com/StructureDefinition/encounterNote">
		<valueString value="visitDescription"></valueString>
	</extension>
	<extension url="http://orionhealth.com/StructureDefinition/customString">
		<valueString value="customField01"></valueString>
	</extension>
	<extension url="http://orionhealth.com/StructureDefinition/customString">
		<valueString value="customField02"></valueString>
	</extension>
	<extension url="http://orionhealth.com/StructureDefinition/customString">
		<valueString value="customField03"></valueString>
	</extension>
	<extension url="http://orionhealth.com/StructureDefinition/customString">
		<valueString value="customField04"></valueString>
	</extension>
	<extension url="http://orionhealth.com/StructureDefinition/customString">
		<valueString value="customField05"></valueString>
	</extension>
	<identifier>
		<system value="http://www.FHIR_EXAMPLE/vnUID"></system>
		<value value="4596427104182954"></value>
	</identifier>
	<status value="in-progress"></status>
	<class value="inpatient"></class>
	<patient>
		<reference value="Patient/GFAE6USJJ5HA"></reference>
	</patient>
	<participant>
		<type>
			<coding>
				<system value="http://hl7.org/fhir/v3/ParticipationType"></system>
				<code value="ATND"></code>
				<display value="attender"></display>
			</coding>
		</type>
		<individual>
			<reference value="#1"></reference>
		</individual>
	</participant>
	<participant>
		<type>
			<coding>
				<system value="http://hl7.org/fhir/v3/ParticipationType"></system>
				<code value="ATND"></code>
				<display value="attender"></display>
			</coding>
		</type>
		<individual>
			<reference value="#2"></reference>
		</individual>
	</participant>
	<participant>
		<type>
			<coding>
				<system value="http://hl7.org/fhir/v3/ParticipationType"></system>
				<code value="CON"></code>
				<display value="consultant"></display>
			</coding>
		</type>
		<individual>
			<reference value="#3"></reference>
		</individual>
	</participant>
	<participant>
		<type>
			<coding>
				<system value="http://hl7.org/fhir/v3/ParticipationType"></system>
				<code value="REF"></code>
				<display value="referrer"></display>
			</coding>
		</type>
		<individual>
			<reference value="#4"></reference>
		</individual>
	</participant>
	<appointment>
		<reference value="#5"></reference>
	</appointment>
	<period>
		<start value="2011-02-02T10:15:00+13:00"></start>
		<end value="2011-02-03T10:15:00+13:00"></end>
	</period>
	<length>
		<value value="1"></value>
		<unit value="Days"></unit>
	</length>
	<reason>
		<coding>
			<system value="http://www.FHIR_EXAMPLE/ADMIT_REASONS"></system>
			<code value="admitReason"></code>
			<display value="Admit Reason 1 Free Text"></display>
		</coding>
		<text value="Alternate Admit Reason 1 Free Text"></text>
	</reason>
	<reason>
		<coding>
			<system value="http://www.FHIR_EXAMPLE/ALT_ADMIT_REASONS"></system>
			<code value="altAdmitReason"></code>
		</coding>
	</reason>
	<hospitalization>
		<preAdmissionIdentifier>
			<system value="http://www.FHIR_EXAMPLE/pnUID"></system>
			<value value="preAdmitNumber"></value>
		</preAdmissionIdentifier>
		<destination>
			<reference value="#6"></reference>
		</destination>
		<dischargeDisposition>
			<coding>
				<system value="http://www.FHIR_EXAMPLE/ORION"></system>
				<code value="dischargeDisposition"></code>
				<display value="dischargeDisposition"></display>
			</coding>
		</dischargeDisposition>
		<dischargeDiagnosis>
			<reference value="#7"></reference>
		</dischargeDiagnosis>
	</hospitalization>
	<location>
		<location>
			<reference value="#9"></reference>
		</location>
	</location>
	<location>
		<location>
			<reference value="#10"></reference>
		</location>
	</location>
	<location>
		<location>
			<reference value="#11"></reference>
		</location>
	</location>
	<location>
		<location>
			<reference value="#12"></reference>
		</location>
	</location>
	<location>
		<location>
			<reference value="#13"></reference>
		</location>
	</location>
</Encounter>